Folder: streamlit-run/src

File: 0928 18-61-2 LiP-ECDEC_02_CstC.mpt
EC-Lab ASCII FILE
Nb header lines : 64

Constant Current

Run on channel : 5 (SN 11815)
User :
Electrode connection : standard
Ewe ctrl range : min = 0.00 V, max = 5.00 V
Ewe,I filtering : 50 kHz
Safety Limits :
	Do not start on E overload
Channel : Floating
Acquisition started on : 09/28/2022 14:10:45
Saved on :
	File : 0928 18-61-2 LiP-ECDEC_02_CstC.mpr
	Directory : C:\Users\U HYeok Choi\Documents\EC-Lab\Data\cey\0928 18-61-4 LiP-ECDEC\
	Host : 192.109.209.120
Device : VSP-300 (SN 0162)
Address : 192.109.209.128
EC-Lab for windows v11.20 (software)
Internet server v11.20 (firmware)
Command interpretor v11.20 (firmware)
Electrode material :
Initial state :
Electrolyte :
Comments : Li-ion 18650 1.35 A.h
Comments : GITT
Mass of active material : 7000.000 mg
 at x = 1.000
Molecular weight of active material (at x = 0) : 90.930 g/mol
Atomic weight of intercalated ion : 6.940 g/mol
Acquisition started at : xo = 0.900
Number of e- transfered per intercalated ion : 1
for DX = 1, DQ = 1916.936 mA.h
Battery capacity : 0.000 A.h
Cable : standard
Electrode surface area : 0.001 cm2
Characteristic mass : 0.001 g
Record Power
Cycle Definition : Charge/Discharge alternance
Ns                  0                   1
tR (h:m:s)          0:00:0.0000         0:00:0.0000
dER/dt (mV/h)       2.0                 2.0
dER (mV)            0.00                0.00
dtR (s)             1.0000              1.0000
Is                  1.000               -1.000
unit Is             mA                  mA
vs.                 <None>              <None>
ts (h:m:s)          7:07:0.0000         7:07:0.0000
EM (V)              1.000               0.000
dQM                 7.117               7.117
unit dQM            mA.h                mA.h
record              <Ewe>               <Ewe>
dEs (mV)            0.00                0.00
dts (s)             0.1000              0.1000
E range min (V)     0.000               0.000
E range max (V)     5.000               5.000
I Range             10 mA               10 mA
Bandwidth           8                   8
goto Ns'            0                   0
nc cycles           0                   3

mode	ox/red	error	control changes	Ns changes	counter inc.	time/s	control/mA	<Ewe>/V	I/mA	dq/mA.h	dQ/mA.h	(Q-Qo)/mA.h	Q charge/discharge/mA.h	half cycle	Energy charge/W.h	Energy discharge/W.h	Capacitance charge/uF	Capacitance discharge/uF	x	Q discharge/mA.h	Q charge/mA.h	Capacity/mA.h	Efficiency/%	cycle number	P/W
1	1	0	1	0	0	159.997	1	0.0623005	1.00017	2.74852e-05	2.74852e-05	2.74852e-05	2.74852e-05	0	1.71234e-09	0.000000000000000E+000	0.000000000000000E+000	0.000000000000000E+000	0.9	0.000000000000000E+000	2.74852e-05	2.74852e-05	0.0000000E+000	0.000000000000000E+000	6.23112e-05
1	1	0	1	0	0	160.797	1	0.255551	1.00019	2.77825e-05	0.000249746	0.000249746	0.000249746	0	4.05175e-08	0.000000000000000E+000	4652.44	0.000000000000000E+000	0.9	0.000000000000000E+000	0.000249746	0.000249746	0.0000000E+000	0.000000000000000E+000	0.000255599
1	1	0	1	0	0	161.597	1	0.42934	1.00016	2.77823e-05	0.000472005	0.000472005	0.000472005	0	1.19193e-07	0.000000000000000E+000	4629.53	0.000000000000000E+000	0.9	0.000000000000000E+000	0.000472005	0.000472005	0.0000000E+000	0.000000000000000E+000	0.000429407
1	1	0	1	0	0	162.397	1	0.598162	1.00016	2.77821e-05	0.000694262	0.000694262	0.000694262	0	2.35768e-07	0.000000000000000E+000	4664.16	0.000000000000000E+000	0.9	0.000000000000000E+000	0.000694262	0.000694262	0.0000000E+000	0.000000000000000E+000	0.00059826
1	1	0	1	0	0	163.197	1	0.765814	1.00013	2.77822e-05	0.00091652	0.00091652	0.00091652	0	3.89672e-07	0.000000000000000E+000	4689.99	0.000000000000000E+000	0.899999	0.000000000000000E+000	0.00091652	0.00091652	0.0000000E+000	0.000000000000000E+000	0.00076591
1	1	0	1	0	0	163.997	1	0.934636	1.00019	2.77821e-05	0.00113878	0.00113878	0.00113878	0	5.80962e-07	0.000000000000000E+000	4699.56	0.000000000000000E+000	0.899999	0.000000000000000E+000	0.00113878	0.00113878	0.0000000E+000	0.000000000000000E+000	0.000934818
1	0	0	0	0	0	164.659	-1	0.783945	-0.99993	-2.77755e-05	-0.000111097	0.00110047	-0.000111097	1	6.51768e-07	-9.30738e-08	4683.32	3581.52	0.899999	0.000111097	0.000000000000000E+000	0.000111097	0.0000000E+000	0.000000000000000E+000	-0.00078389
1	0	0	0	0	0	165.459	-1	0.560463	-0.999946	-2.77756e-05	-0.000333302	0.000878264	-0.000333302	1	6.51768e-07	-2.38196e-07	4683.32	3580.12	0.9	0.000333302	0.000000000000000E+000	0.000333302	0.0000000E+000	0.000000000000000E+000	-0.000560432
1	0	0	0	0	0	166.259	-1	0.378264	-0.999904	-2.77753e-05	-0.000555505	0.000656061	-0.000555505	1	6.51768e-07	-3.39484e-07	4683.32	3865.49	0.9	0.000555505	0.000000000000000E+000	0.000555505	0.0000000E+000	0.000000000000000E+000	-0.000378227
1	0	0	0	0	0	167.059	-1	0.216337	-0.999908	-2.77754e-05	-0.000777707	0.000433859	-0.000777707	1	6.51768e-07	-4.03002e-07	4683.32	4121.65	0.9	0.000777707	0.000000000000000E+000	0.000777707	0.0000000E+000	0.000000000000000E+000	-0.000216317
1	0	0	0	0	0	167.859	-1	0.0685735	-0.9999	-2.77752e-05	-0.000999909	0.000211657	-0.000999909	1	6.51768e-07	-4.32373e-07	4683.32	4352.46	0.9	0.000999909	0.000000000000000E+000	0.000999909	0.0000000E+000	0.000000000000000E+000	-6.85666e-05
1	1	0	1	0	1	168.505	1	0.147964	1.00018	2.77826e-05	8.33439e-05	0.000199121	8.33439e-05	2	9.90283e-09	-3.31868e-14	5046.26	0.000000000000000E+000	0.9	0.000000000000000E+000	8.33439e-05	8.33439e-05	0.0000000E+000	1	0.000147991
1	1	0	1	0	1	169.305	1	0.345931	1.00019	2.77824e-05	0.000305603	0.00042138	0.000305603	2	6.80786e-08	-3.31868e-14	4273.77	0.000000000000000E+000	0.9	0.000000000000000E+000	0.000305603	0.000305603	0.0000000E+000	1	0.000345995
1	1	0	1	0	1	170.105	1	0.527009	1.00018	2.77823e-05	0.000527862	0.000643639	0.000527862	2	1.67761e-07	-3.31868e-14	4333.62	0.000000000000000E+000	0.9	0.000000000000000E+000	0.000527862	0.000527862	0.0000000E+000	1	0.000527106
1	1	0	1	0	1	170.905	1	0.702788	1.00016	2.77822e-05	0.000750119	0.000865896	0.000750119	2	3.06913e-07	-3.31868e-14	4396.08	0.000000000000000E+000	0.9	0.000000000000000E+000	0.000750119	0.000750119	0.0000000E+000	1	0.000702903
1	1	0	1	0	1	171.705	1	0.877864	1.00014	2.77819e-05	0.000972375	0.00108815	0.000972375	2	4.84983e-07	-3.31868e-14	4434.68	0.000000000000000E+000	0.899999	0.000000000000000E+000	0.000972375	0.000972375	0.0000000E+000	1	0.000877988
1	0	0	0	0	1	172.315	-1	0.895602	-0.999984	-2.77754e-05	-2.77714e-05	0.00120218	-2.77714e-05	3	6.18943e-07	-2.48757e-08	4405.41	0.000000000000000E+000	0.899999	2.77714e-05	0.000000000000000E+000	2.77714e-05	0.0000000E+000	1	-0.000895587
1	0	0	0	0	1	173.115	-1	0.639117	-0.999923	-2.77753e-05	-0.000249975	0.000979977	-0.000249975	3	6.18943e-07	-1.89644e-07	4405.41	3508.74	0.899999	0.000249975	0.000000000000000E+000	0.000249975	0.0000000E+000	1	-0.000639068
1	0	0	0	0	1	173.915	-1	0.446503	-0.999927	-2.77754e-05	-0.000472177	0.000757774	-0.000472177	3	6.18943e-07	-3.06959e-07	4405.41	3785.07	0.9	0.000472177	0.000000000000000E+000	0.000472177	0.0000000E+000	1	-0.00044647
1	0	0	0	0	1	174.715	-1	0.278746	-0.999915	-2.77754e-05	-0.000694381	0.00053557	-0.000694381	3	6.18943e-07	-3.84876e-07	4405.41	4052.49	0.9	0.000694381	0.000000000000000E+000	0.000694381	0.0000000E+000	1	-0.000278722
1	0	0	0	0	1	175.515	-1	0.126498	-0.999892	-2.77752e-05	-0.000916583	0.000313368	-0.000916583	3	6.18943e-07	-4.27539e-07	4405.41	4290.36	0.9	0.000916583	0.000000000000000E+000	0.000916583	0.0000000E+000	1	-0.000126484
1	1	0	1	1	0	176.187	1	0.00816681	0.928067	-3.99154e-09	-3.99154e-09	0.000127048	-3.99154e-09	4	0.000000000000000E+000	-3.25981e-14	0.000000000000000E+000	0.000000000000000E+000	0.9	3.99154e-09	0.000000000000000E+000	3.99154e-09	0.0000000E+000	2	7.57935e-06
1	1	0	1	0	0	176.987	1	0.275368	1.00018	2.77826e-05	0.000222257	0.000349309	0.000222257	4	4.12578e-08	-3.25981e-14	4282.16	0.000000000000000E+000	0.9	0.000000000000000E+000	0.000222257	0.000222257	0.0000000E+000	2	0.000275417
1	1	0	1	0	0	177.787	1	0.461028	1.00014	2.77823e-05	0.000444516	0.000571568	0.000444516	4	1.25906e-07	-3.25981e-14	4295.87	0.000000000000000E+000	0.9	0.000000000000000E+000	0.000444516	0.000444516	0.0000000E+000	2	0.000461094
1	1	0	1	0	0	178.587	1	0.638696	1.00015	2.77821e-05	0.000666774	0.000793826	0.000666774	4	2.50661e-07	-3.25981e-14	4362.91	0.000000000000000E+000	0.9	0.000000000000000E+000	0.000666774	0.000666774	0.0000000E+000	2	0.000638794
1	1	0	1	0	0	179.387	1	0.814443	1.00016	2.77819e-05	0.00088903	0.00101608	0.00088903	4	4.14585e-07	-3.25981e-14	4408.86	0.000000000000000E+000	0.899999	0.000000000000000E+000	0.00088903	0.00088903	0.0000000E+000	2	0.000814573
1	1	0	1	0	0	180.181	1	0.989794	1.00013	2.63374e-05	0.00110984	0.00123689	0.00110984	4	6.16184e-07	-3.25981e-14	4433.08	0.000000000000000E+000	0.899999	0.000000000000000E+000	0.00110984	0.00110984	0.0000000E+000	2	0.000989926
1	0	0	0	0	0	180.882	-1	0.694064	-0.999923	-2.77754e-05	-0.000194423	0.00104247	-0.000194423	5	6.16188e-07	-1.53389e-07	4433.09	3475.21	0.899999	0.000194423	0.000000000000000E+000	0.000194423	0.0000000E+000	2	-0.000694011
1	0	0	0	0	0	181.682	-1	0.491937	-0.999885	-2.77754e-05	-0.000416627	0.000820266	-0.000416627	5	6.16188e-07	-2.81576e-07	4433.09	3716.81	0.9	0.000416627	0.000000000000000E+000	0.000416627	0.0000000E+000	2	-0.00049188
1	0	0	0	0	0	182.482	-1	0.319342	-0.999885	-2.77753e-05	-0.000638829	0.000598063	-0.000638829	5	6.16188e-07	-3.68939e-07	4433.09	3991.79	0.9	0.000638829	0.000000000000000E+000	0.000638829	0.0000000E+000	2	-0.000319305
1	0	0	0	0	0	183.282	-1	0.163687	-0.999919	-2.77754e-05	-0.000861032	0.000375861	-0.000861032	5	6.16188e-07	-4.20185e-07	4433.09	4235.84	0.9	0.000861032	0.000000000000000E+000	0.000861032	0.0000000E+000	2	-0.000163674
1	0	0	0	0	0	184.082	-1	0.0209372	-0.999892	-2.77753e-05	-0.00108323	0.000153659	-0.00108323	5	6.16188e-07	-4.38502e-07	4433.09	4459.11	0.9	0.00108323	0.000000000000000E+000	0.00108323	0.0000000E+000	2	-2.0935e-05
1	1	0	1	0	1	184.755	1	0.226171	1.00015	2.77825e-05	0.000166691	0.000300074	0.000166691	6	2.66338e-08	-3.35587e-14	4359.71	0.000000000000000E+000	0.9	0.000000000000000E+000	0.000166691	0.000166691	0.0000000E+000	3	0.000226206
1	1	0	1	0	1	185.555	1	0.415755	1.00016	2.77823e-05	0.00038895	0.000522333	0.00038895	6	1.0092e-07	-3.35587e-14	4279.04	0.000000000000000E+000	0.9	0.000000000000000E+000	0.00038895	0.00038895	0.0000000E+000	3	0.000415823
1	1	0	1	0	1	186.355	1	0.594825	1.00016	2.7782e-05	0.000611207	0.00074459	0.000611207	6	2.15817e-07	-3.35587e-14	4345.95	0.000000000000000E+000	0.9	0.000000000000000E+000	0.000611207	0.000611207	0.0000000E+000	3	0.000594923
1	1	0	1	0	1	187.155	1	0.770939	1.00018	2.7782e-05	0.000833463	0.000966846	0.000833463	6	3.70054e-07	-3.35587e-14	4396.86	0.000000000000000E+000	0.899999	0.000000000000000E+000	0.000833463	0.000833463	0.0000000E+000	3	0.00077108
1	1	0	1	0	1	187.955	1	0.947539	1.00015	2.77819e-05	0.00105572	0.0011891	0.00105572	6	5.63466e-07	-3.35587e-14	4424.37	0.000000000000000E+000	0.899999	0.000000000000000E+000	0.00105572	0.00105572	0.0000000E+000	3	0.000947684
1	0	0	0	0	1	188.646	-1	0.753289	-0.999953	-2.77756e-05	-0.000138874	0.00110312	-0.000138874	7	6.15275e-07	-1.14054e-07	4425.98	3512.19	0.899999	0.000138874	0.000000000000000E+000	0.000138874	0.0000000E+000	3	-0.000753254
1	0	0	0	0	1	189.446	-1	0.538974	-0.999888	-2.77759e-05	-0.00036108	0.000880919	-0.00036108	7	6.15275e-07	-2.5367e-07	4425.98	3644.6	0.9	0.00036108	0.000000000000000E+000	0.00036108	0.0000000E+000	3	-0.000538914
1	0	0	0	0	1	190.246	-1	0.360816	-0.999892	-2.77756e-05	-0.000583286	0.000658713	-0.000583286	7	6.15275e-07	-3.50734e-07	4425.98	3926.24	0.9	0.000583286	0.000000000000000E+000	0.000583286	0.0000000E+000	3	-0.000360777
1	0	0	0	0	1	191.046	-1	0.201474	-0.99993	-2.77755e-05	-0.00080549	0.000436508	-0.00080549	7	6.15275e-07	-4.10711e-07	4425.98	4177.36	0.9	0.00080549	0.000000000000000E+000	0.00080549	0.0000000E+000	3	-0.00020146
1	0	0	0	0	1	191.846	-1	0.0557194	-0.999919	-2.77754e-05	-0.00102769	0.000214305	-0.00102769	7	6.15275e-07	-4.37037e-07	4425.98	4404.84	0.9	0.00102769	0.000000000000000E+000	0.00102769	0.0000000E+000	3	-5.57149e-05
1	0	0	0	0	1	192.12	-1	0.00623534	-0.999892	-2.05537e-05	-0.0011038	0.000138201	-0.0011038	7	6.15275e-07	-4.38816e-07	4425.98	4467.81	0.9	0.0011038	0.000000000000000E+000	0.0011038	99.5654	3	-6.23467e-06